# V0=6V p=1.2x10^{-4} Rfili=6.5
# Guad=x2 Vponte=5.65 (da misurare) FS multimetro 6mV
# Raffreddamento
# Tdito (K)	Vout (V)
52.394	0.396
52.394	0.400
52.683	0.396
52.683	0.396
52.973	0.410
53.263	0.405
53.552	0.396
53.842	0.396
53.552	0.405
54.131	0.415
54.131	0.396
54.131	0.410
54.711	0.400
55.000	0.400
55.000	0.410
55.579	0.405
55.579	0.405
55.869	0.405
56.158	0.400
56.448	0.405
56.448	0.400
56.738	0.410
57.027	0.400
57.027	0.405
57.317	0.396
57.606	0.405
57.896	0.410
57.896	0.415
58.475	0.405
58.186	0.405
58.765	0.405
59.054	0.410
59.054	0.410
59.634	0.415
59.634	0.396
59.923	0.396
59.923	0.410
60.213	0.405
60.502	0.415
60.502	0.410
60.792	0.400
60.792	0.405
61.081	0.400
61.081	0.405
61.371	0.405
61.661	0.405
61.661	0.400
61.950	0.415
62.240	0.396
62.240	0.410
62.529	0.400
62.819	0.405
62.819	0.405
63.398	0.405
63.398	0.405
63.398	0.405
63.688	0.410
63.688	0.405
63.688	0.405
63.977	0.396
64.267	0.400
64.267	0.386
64.557	0.386
64.557	0.410
65.136	0.405
64.846	0.410
65.136	0.405
65.136	0.405
65.425	0.410
65.425	0.420
65.425	0.410
66.004	0.415
66.004	0.415
66.294	0.415
66.294	0.410
66.294	0.410
66.584	0.410
66.873	0.410
66.584	0.410
66.873	0.415
67.163	0.405
67.163	0.415
67.163	0.459
67.742	0.439
67.163	0.420
67.452	0.410
68.032	0.405
68.032	0.400
68.032	0.415
68.032	0.410
68.321	0.420
68.321	0.405
68.611	0.415
68.611	0.405
68.611	0.415
69.480	0.410
69.190	0.405
69.190	0.405
69.190	0.410
69.480	0.410
69.480	0.405
69.480	0.415
69.480	0.410
69.769	0.405
69.769	0.415
70.059	0.430
70.348	0.415
70.059	0.405
70.348	0.371
70.348	0.410
70.928	0.410
70.638	0.415
70.638	0.415
70.928	0.405
71.217	0.444
71.507	0.405
71.217	0.420
71.217	0.415
71.507	0.415
71.507	0.415
71.507	0.415
71.796	0.405
71.507	0.410
72.086	0.405
72.086	0.415
72.086	0.415
72.086	0.405
72.086	0.415
72.375	0.425
72.665	0.420
72.086	0.410
72.375	0.420
72.665	0.415
72.955	0.405
72.955	0.410
72.955	0.415
72.955	0.410
73.244	0.415
73.534	0.405
72.665	0.410
73.244	0.405
73.244	0.405
73.534	0.405
73.534	0.410
73.534	0.415
73.534	0.415
73.823	0.405
73.823	0.405
73.823	0.410
74.113	0.410
74.113	0.410
74.113	0.415
74.403	0.420
74.403	0.420
74.403	0.415
74.692	0.410
74.692	0.420
74.982	0.410
74.982	0.425
74.692	0.410
74.982	0.410
74.982	0.420
74.982	0.415
74.982	0.420
75.271	0.420
75.271	0.415
75.271	0.415
75.561	0.430
75.561	0.420
75.561	0.425
75.561	0.420
75.851	0.415
75.851	0.415
75.851	0.425
75.851	0.405
76.140	0.405
76.140	0.415
76.140	0.415
76.140	0.410
76.430	0.405
76.430	0.415
76.430	0.415
76.140	0.425
76.719	0.415
76.719	0.410
76.719	0.410
77.298	0.410
76.719	0.425
77.009	0.410
76.719	0.405
77.298	0.410
77.009	0.405
77.009	0.425
77.298	0.415
77.298	0.410
77.298	0.405
77.588	0.415
77.588	0.415
77.588	0.415
77.878	0.410
77.878	0.415
77.878	0.410
77.878	0.415
77.878	0.420
78.167	0.415
78.167	0.415
77.878	0.415
78.167	0.415
78.167	0.415
78.167	0.415
78.457	0.415
78.457	0.410
78.457	0.415
78.746	0.420
78.457	0.425
78.746	0.410
78.746	0.400
78.746	0.410
78.746	0.420
79.036	0.415
79.036	0.410
79.036	0.410
79.036	0.415
79.036	0.410
79.326	0.415
79.036	0.410
79.326	0.420
79.326	0.415
79.326	0.420
79.326	0.405
79.615	0.410
79.615	0.415
79.905	0.420
79.615	0.415
79.615	0.420
79.905	0.420
79.905	0.420
79.905	0.410
79.905	0.420
79.905	0.420
79.905	0.410
80.194	0.410
80.194	0.420
80.194	0.420
80.194	0.415
80.484	0.415
80.194	0.415
80.484	0.420
80.484	0.420
80.484	0.420
80.484	0.420
80.774	0.420
80.774	0.420
80.774	0.415
80.774	0.415
80.774	0.430
81.063	0.415
81.063	0.410
81.353	0.420
81.353	0.415
81.063	0.405
81.063	0.420
81.353	0.410
81.353	0.415
81.353	0.430
81.353	0.410
81.642	0.425
81.642	0.415
81.353	0.420
81.642	0.410
81.642	0.405
81.353	0.425
81.642	0.415
81.642	0.415
81.932	0.415
81.932	0.415
81.932	0.415
82.221	0.400
82.221	0.415
81.932	0.415
82.221	0.415
82.221	0.415
82.221	0.420
82.221	0.415
82.511	0.415
82.221	0.410
82.511	0.410
82.511	0.415
82.511	0.415
82.801	0.405
82.801	0.410
82.511	0.415
82.801	0.410
82.801	0.415
82.801	0.415
83.090	0.415
83.090	0.415
83.090	0.415
83.090	0.415
83.090	0.415
83.090	0.415
83.090	0.410
83.380	0.410
83.380	0.410
83.090	0.425
83.380	0.410
83.380	0.425
83.380	0.415
83.669	0.410
83.380	0.410
83.669	0.435
83.669	0.405
83.380	0.410
83.669	0.420
83.959	0.425
83.959	0.415
83.959	0.415
83.959	0.420
83.959	0.410
83.959	0.410
83.959	0.415
84.249	0.405
84.249	0.400
84.249	0.415
84.249	0.420
84.249	0.425
83.959	0.415
84.538	0.420
84.249	0.415
84.538	0.415
84.538	0.415
84.828	0.425
84.249	0.420
84.538	0.425
84.249	0.410
84.828	0.425
84.828	0.420
84.828	0.410
84.828	0.410
84.828	0.415
85.407	0.415
84.828	0.430
85.407	0.410
85.117	0.420
85.117	0.410
85.117	0.420
85.407	0.415
85.407	0.415
85.117	0.415
85.407	0.415
85.117	0.425
85.407	0.415
85.697	0.415
85.407	0.415
85.407	0.415
85.697	0.415
85.407	0.415
85.697	0.415
85.697	0.415
85.697	0.415
85.697	0.420
85.986	0.405
85.697	0.415
85.697	0.420
85.986	0.415
85.986	0.420
85.986	0.420
86.276	0.420
85.986	0.420
85.986	0.415
86.276	0.415
85.986	0.420
86.276	0.420
86.276	0.420
86.276	0.415
86.276	0.420
86.565	0.420
86.565	0.420
86.565	0.410
86.565	0.420
86.855	0.420
86.565	0.444
86.855	0.415
87.434	0.425
86.855	0.410
86.565	0.410
86.855	0.415
87.144	0.415
86.855	0.420
86.855	0.410
86.855	0.410
87.144	0.415
87.144	0.410
87.144	0.415
87.144	0.410
87.144	0.415
87.434	0.410
87.144	0.405
87.434	0.410
87.434	0.415
87.434	0.415
87.724	0.410
87.724	0.410
88.013	0.400
87.724	0.420
87.724	0.415
87.724	0.415
87.724	0.420
87.724	0.405
87.724	0.415
87.724	0.415
87.724	0.415
88.303	0.386
87.724	0.425
87.724	0.410
88.013	0.410
88.013	0.420
88.013	0.415
88.303	0.410
88.303	0.410
88.303	0.410
88.303	0.410
88.303	0.410
88.303	0.415
88.303	0.415
88.303	0.410
88.303	0.415
88.592	0.454
88.882	0.400
88.592	0.410
88.592	0.420
88.592	0.415
88.882	0.415
88.882	0.415
88.592	0.415
88.592	0.415
89.172	0.410
88.882	0.415
88.882	0.410
89.172	0.415
88.592	0.381
89.172	0.415
89.172	0.415
89.172	0.410
89.172	0.410
89.172	0.410
89.172	0.410
88.882	0.410
89.461	0.435
89.172	0.405
89.172	0.415
89.172	0.410
89.461	0.415
89.461	0.391
89.751	0.415
89.461	0.415
89.751	0.415
89.461	0.415
89.751	0.420
89.751	0.410
89.751	0.415
89.751	0.415
90.040	0.415
89.751	0.420
89.751	0.410
90.040	0.405
90.040	0.449
90.040	0.425
90.330	0.415
88.882	0.410
90.040	0.415
90.040	0.405
90.040	0.410
90.330	0.410
90.330	0.405
90.330	0.410
90.330	0.405
90.330	0.415
90.330	0.425
90.330	0.415
90.330	0.430
90.620	0.420
90.620	0.410
90.620	0.410
90.620	0.410
90.620	0.410
90.620	0.415
90.620	0.410
90.620	0.415
90.620	0.410
90.909	0.415
90.909	0.415
90.909	0.415
90.909	0.410
90.909	0.400
91.199	0.410
90.909	0.425
90.909	0.410
91.199	0.415
90.620	0.410
91.488	0.410
91.778	0.430
91.199	0.415
91.199	0.405
91.488	0.410
91.488	0.410
91.488	0.410
91.488	0.415
91.488	0.420
91.488	0.410
91.488	0.410
91.488	0.410
91.488	0.410
91.778	0.410
91.778	0.405
91.778	0.410
91.778	0.410
91.778	0.410
92.068	0.405
91.778	0.405
91.778	0.410
92.068	0.415
92.068	0.415
92.068	0.410
92.068	0.410
92.357	0.410
92.068	0.405
92.068	0.415
92.357	0.420
92.357	0.410
92.357	0.405
92.357	0.405
92.357	0.410
92.357	0.410
92.357	0.405
92.647	0.415
92.647	0.410
92.357	0.410
92.357	0.415
92.647	0.420
92.647	0.410
92.647	0.425
92.647	0.400
92.936	0.405
92.936	0.405
92.936	0.415
92.936	0.410
92.936	0.415
93.226	0.415
92.936	0.420
92.936	0.420
93.515	0.400
92.936	0.415
92.936	0.420
93.226	0.410
93.226	0.391
93.805	0.400
93.226	0.410
93.226	0.405
93.515	0.405
93.226	0.410
93.226	0.410
93.515	0.400
93.515	0.415
93.226	0.415
93.515	0.415
93.515	0.400
94.095	0.415
94.095	0.361
93.805	0.415
93.805	0.410
93.515	0.405
93.805	0.415
93.805	0.415
94.095	0.410
93.805	0.405
93.805	0.415
93.805	0.410
94.095	0.420
93.805	0.405
94.095	0.405
93.805	0.410
94.095	0.405
94.095	0.405
94.095	0.410
94.095	0.405
94.095	0.405
94.384	0.405
94.095	0.415
94.384	0.410
94.384	0.405
94.384	0.420
94.384	0.415
94.674	0.405
94.384	0.405
94.384	0.410
94.384	0.410
94.674	0.410
94.674	0.405
94.384	0.410
94.674	0.415
94.674	0.415
94.674	0.410
94.674	0.425
94.963	0.420
94.963	0.405
94.963	0.405
94.963	0.405
94.963	0.410
94.963	0.405
94.963	0.391
94.963	0.410
95.253	0.405
95.253	0.405
94.963	0.400
94.963	0.405
95.253	0.405
95.253	0.400
95.253	0.415
95.253	0.400
95.543	0.405
95.543	0.410
95.253	0.410
95.543	0.405
95.543	0.405
95.543	0.405
95.253	0.396
95.543	0.410
95.543	0.410
95.543	0.410
95.543	0.405
96.122	0.410
95.832	0.410
95.832	0.415
95.832	0.400
96.122	0.415
95.832	0.400
96.122	0.405
96.122	0.415
95.832	0.400
96.411	0.405
96.122	0.400
96.122	0.410
96.122	0.405
96.411	0.405
96.122	0.405
96.411	0.405
96.122	0.405
96.411	0.405
96.411	0.405
96.411	0.405
96.411	0.405
96.411	0.410
96.411	0.400
96.701	0.405
96.411	0.410
96.411	0.410
96.411	0.439
96.411	0.405
96.701	0.405
96.701	0.405
96.701	0.410
96.411	0.410
96.991	0.420
96.991	0.410
96.991	0.415
96.991	0.410
97.280	0.405
96.701	0.415
96.991	0.400
96.991	0.410
96.411	0.410
96.991	0.435
97.280	0.391
96.991	0.396
97.280	0.405
96.991	0.400
97.280	0.405
97.280	0.405
97.280	0.386
97.280	0.400
97.280	0.405
97.570	0.405
97.280	0.410
97.570	0.405
97.570	0.405
97.570	0.410
97.570	0.410
97.570	0.405
97.280	0.410
97.570	0.396
97.570	0.396
97.570	0.410
97.570	0.410
97.859	0.405
97.859	0.396
97.859	0.405
97.859	0.415
97.859	0.410
97.859	0.405
97.859	0.410
98.149	0.400
98.149	0.405
98.149	0.405
97.859	0.405
98.149	0.405
98.149	0.410
98.438	0.405
98.438	0.405
98.438	0.410
99.307	0.405
98.438	0.391
98.149	0.400
98.438	0.405
98.438	0.400
98.438	0.405
98.438	0.405
98.438	0.400
98.438	0.400
98.728	0.400
98.728	0.386
98.728	0.396
98.728	0.405
98.728	0.410
98.728	0.396
99.018	0.405
99.018	0.405
98.728	0.405
99.018	0.420
98.728	0.415
98.728	0.400
99.018	0.405
99.018	0.405
99.018	0.400
99.018	0.400
99.018	0.410
99.018	0.405
99.018	0.405
98.728	0.400
99.307	0.391
99.307	0.405
99.307	0.396
99.307	0.400
99.307	0.405
99.307	0.405
99.307	0.400
99.307	0.400
99.597	0.400
99.307	0.400
99.597	0.400
99.597	0.400
99.597	0.396
99.886	0.396
99.597	0.400
99.597	0.400
99.597	0.420
99.597	0.400
99.597	0.405
99.597	0.400
99.886	0.400
99.886	0.405
99.886	0.405
99.886	0.405
99.886	0.405
99.886	0.405
99.886	0.410
100.176	0.405
100.466	0.376
100.176	0.405
100.176	0.405
99.886	0.400
99.886	0.400
100.466	0.405
100.176	0.400
100.466	0.400
100.466	0.405
100.466	0.400
100.466	0.396
100.466	0.396
100.176	0.405
100.466	0.420
100.466	0.410
100.466	0.405
100.466	0.405
100.466	0.400
100.466	0.405
100.466	0.405
100.755	0.400
100.755	0.410
100.755	0.400
100.755	0.410
101.045	0.396
101.045	0.396
100.755	0.396
100.755	0.396
100.755	0.396
100.755	0.400
100.755	0.396
101.045	0.405
100.755	0.420
100.755	0.400
101.334	0.405
101.334	0.400
101.045	0.405
101.334	0.405
101.045	0.400
101.045	0.396
101.334	0.396
101.334	0.410
101.334	0.400
101.624	0.396
101.334	0.400
101.624	0.396
101.334	0.400
101.624	0.400
101.334	0.425
101.624	0.405
101.624	0.405
101.334	0.410
101.624	0.396
101.624	0.405
101.624	0.400
101.914	0.391
101.624	0.400
101.914	0.405
101.914	0.400
101.914	0.400
101.914	0.405
101.914	0.381
101.914	0.400
101.334	0.410
101.914	0.396
102.203	0.400
102.203	0.400
102.203	0.400
102.203	0.396
102.203	0.405
102.203	0.405
102.203	0.405
102.493	0.405
102.203	0.400
102.203	0.400
102.203	0.391
102.203	0.400
102.493	0.405
102.203	0.400
102.493	0.386
102.493	0.400
102.493	0.396
102.493	0.396
102.493	0.391
102.782	0.410
102.782	0.400
102.203	0.405
102.493	0.400
102.782	0.400
102.782	0.400
102.493	0.400
102.782	0.405
102.782	0.400
102.782	0.425
102.782	0.386
102.782	0.396
102.782	0.400
102.782	0.396
102.782	0.396
103.072	0.381
103.072	0.391
103.072	0.415
103.361	0.410
103.072	0.405
103.361	0.400
103.072	0.400
103.361	0.400
103.651	0.425
103.651	0.405
103.361	0.396
103.651	0.391
103.651	0.396
103.361	0.396
103.651	0.396
103.361	0.391
103.651	0.400
103.361	0.396
103.651	0.391
103.361	0.400
103.651	0.396
103.651	0.400
103.651	0.391
103.651	0.391
103.941	0.405
103.651	0.396
103.651	0.396
103.651	0.400
103.941	0.415
103.941	0.400
103.941	0.391
103.941	0.396
103.941	0.396
103.941	0.400
104.230	0.400
104.230	0.396
104.230	0.391
103.941	0.400
104.230	0.396
103.941	0.396
104.520	0.396
104.230	0.396
104.230	0.400
104.230	0.391
104.230	0.400
104.230	0.410
104.230	0.400
104.230	0.400
104.520	0.396
104.230	0.410
104.809	0.396
104.520	0.400
104.809	0.386
104.230	0.381
105.389	0.396
104.809	0.400
104.809	0.396
104.520	0.400
104.809	0.400
104.520	0.391
104.809	0.396
104.520	0.396
104.809	0.391
104.809	0.391
105.099	0.396
105.099	0.396
104.809	0.396
105.099	0.396
105.099	0.396
105.099	0.396
105.099	0.386
105.099	0.400
105.389	0.391
105.099	0.400
105.099	0.396
105.099	0.391
105.389	0.405
105.099	0.396
105.389	0.391
105.389	0.396
105.389	0.381
105.389	0.400
105.389	0.396
105.678	0.400
105.389	0.396
105.678	0.391
105.389	0.396
105.968	0.347
105.678	0.396
105.968	0.396
105.678	0.391
105.678	0.391
105.678	0.400
105.968	0.396
105.678	0.361
105.968	0.391
105.968	0.396
105.968	0.371
105.968	0.386
105.968	0.391
106.257	0.396
105.968	0.396
106.257	0.396
105.968	0.396
105.968	0.396
105.968	0.415
106.257	0.386
105.968	0.396
105.968	0.396
106.257	0.386
106.547	0.381
106.257	0.400
106.257	0.396
106.257	0.396
106.257	0.400
106.257	0.400
106.257	0.386
106.547	0.400
106.547	0.386
106.547	0.391
106.547	0.396
106.547	0.391
106.547	0.391
106.257	0.391
106.547	0.381
106.257	0.396
106.837	0.391
106.547	0.386
106.547	0.391
106.837	0.396
106.547	0.400
106.547	0.386
106.837	0.391
106.837	0.386
106.837	0.391
106.837	0.376
106.837	0.400
106.837	0.396
107.126	0.391
107.126	0.396
107.126	0.439
107.126	0.391
107.126	0.391
107.416	0.396
107.126	0.391
107.416	0.386
107.126	0.391
107.416	0.371
107.416	0.371
107.126	0.391
107.126	0.396
107.416	0.396
107.416	0.391
107.416	0.396
107.705	0.386
107.416	0.391
107.705	0.396
107.705	0.386
107.705	0.391
107.705	0.391
107.416	0.391
108.285	0.410
107.705	0.391
107.705	0.391
107.705	0.391
107.705	0.391
107.705	0.391
107.705	0.396
107.995	0.386
107.995	0.386
107.995	0.396
107.995	0.386
107.995	0.391
107.995	0.391
107.995	0.391
107.995	0.391
107.995	0.381
107.995	0.396
107.995	0.400
107.995	0.391
107.995	0.386
108.285	0.386
108.574	0.391
108.285	0.396
108.285	0.391
108.574	0.386
108.574	0.386
108.574	0.391
108.574	0.391
108.285	0.386
108.285	0.396
108.574	0.386
108.285	0.386
108.574	0.386
108.574	0.386
108.864	0.386
108.574	0.391
108.864	0.391
108.574	0.400
108.574	0.391
108.864	0.400
108.864	0.391
108.574	0.386
109.153	0.356
108.864	0.386
109.153	0.391
108.864	0.386
108.864	0.391
108.864	0.381
108.574	0.391
109.153	0.386
108.864	0.391
109.153	0.386
109.153	0.386
109.153	0.391
109.153	0.391
109.153	0.386
109.153	0.391
107.995	0.396
109.443	0.391
109.153	0.386
109.443	0.386
109.443	0.381
109.732	0.386
109.732	0.391
109.732	0.396
109.443	0.420
109.443	0.391
109.443	0.386
109.443	0.396
109.443	0.396
109.443	0.391
109.732	0.381
109.443	0.396
109.732	0.396
110.022	0.396
109.732	0.391
109.732	0.396
109.732	0.396
109.732	0.396
110.022	0.386
110.022	0.386
110.022	0.391
110.022	0.391
110.022	0.391
109.732	0.391
110.022	0.386
110.022	0.386
109.732	0.400
110.022	0.425
110.022	0.396
110.312	0.396
110.312	0.400
110.312	0.400
110.312	0.396
110.312	0.405
110.312	0.386
110.312	0.425
110.601	0.386
110.312	0.396
110.312	0.391
110.601	0.396
110.601	0.391
110.601	0.391
110.601	0.396
110.312	0.400
110.601	0.405
110.312	0.400
110.312	0.396
110.601	0.400
110.601	0.396
110.601	0.396
110.891	0.396
110.601	0.400
110.601	0.400
110.891	0.400
110.891	0.400
110.891	0.396
111.180	0.391
111.180	0.386
111.180	0.396
111.180	0.396
111.180	0.396
110.891	0.391
110.891	0.405
111.180	0.391
111.470	0.400
110.891	0.396
111.180	0.400
111.180	0.396
111.180	0.396
111.180	0.400
111.470	0.400
111.470	0.400
111.180	0.400
111.470	0.396
111.470	0.400
111.470	0.410
111.470	0.400
111.470	0.381
111.760	0.396
111.470	0.396
111.470	0.400
111.470	0.396
112.339	0.400
111.760	0.400
111.470	0.396
111.470	0.410
111.760	0.400
111.760	0.400
111.760	0.400
111.760	0.405
111.760	0.396
112.049	0.410
111.760	0.400
111.760	0.410
112.049	0.400
112.049	0.400
112.049	0.396
112.339	0.400
112.049	0.396
112.049	0.396
112.049	0.400
112.049	0.400
112.049	0.396
112.339	0.405
112.049	0.405
112.339	0.400
112.339	0.400
112.339	0.410
112.339	0.405
112.339	0.400
112.339	0.410
112.339	0.396
112.339	0.381
112.628	0.396
112.628	0.396
112.628	0.400
112.628	0.405
112.628	0.400
112.628	0.400
112.628	0.396
112.918	0.400
112.918	0.405
112.628	0.415
112.339	0.405
112.628	0.400
112.628	0.405
112.628	0.405
112.918	0.405
112.918	0.400
112.918	0.405
112.628	0.400
112.918	0.396
112.918	0.400
112.918	0.400
112.918	0.400
113.208	0.400
113.208	0.400
113.208	0.400
112.918	0.396
113.497	0.410
113.208	0.400
113.208	0.400
112.918	0.405
113.208	0.405
113.208	0.405
113.208	0.410
113.208	0.405
113.208	0.405
113.497	0.400
113.497	0.400
113.497	0.386
114.076	0.400
113.497	0.400
113.497	0.400
113.787	0.396
113.787	0.400
113.787	0.400
113.787	0.396
113.787	0.405
113.787	0.420
113.497	0.410
113.787	0.405
113.787	0.405
113.787	0.405
113.787	0.410
113.787	0.410
113.787	0.405
113.787	0.405
113.787	0.405
114.076	0.400
114.076	0.400
114.076	0.400
113.787	0.410
114.076	0.400
114.076	0.405
114.076	0.405
115.235	0.405
114.366	0.405
114.076	0.420
114.366	0.396
114.076	0.400
114.366	0.405
114.076	0.405
114.076	0.405
114.366	0.430
114.366	0.410
114.366	0.386
114.366	0.400
114.366	0.400
114.366	0.400
114.655	0.400
114.655	0.400
114.655	0.405
114.655	0.405
114.655	0.405
114.655	0.400
114.655	0.410
114.655	0.410
114.655	0.415
114.945	0.410
114.655	0.410
114.945	0.405
114.945	0.405
114.655	0.410
114.945	0.400
114.945	0.400
114.945	0.410
115.235	0.405
114.945	0.400
114.945	0.415
115.235	0.410
114.945	0.400
114.945	0.400
115.235	0.400
115.235	0.396
115.235	0.405
115.235	0.405
115.235	0.381
115.235	0.415
115.235	0.410
115.235	0.410
115.235	0.420
115.524	0.405
115.524	0.410
115.235	0.405
115.524	0.396
115.524	0.405
115.524	0.410
115.524	0.410
115.524	0.400
115.524	0.405
115.524	0.400
115.814	0.400
115.814	0.400
115.814	0.435
115.814	0.400
116.103	0.410
115.524	0.420
115.814	0.396
115.814	0.396
115.814	0.410
115.814	0.410
116.103	0.415
115.814	0.410
116.103	0.381
116.103	0.405
115.814	0.410
116.103	0.400
116.103	0.405
116.103	0.405
116.103	0.410
116.393	0.405
116.103	0.400
116.103	0.405
116.393	0.405
116.103	0.405
116.103	0.400
116.103	0.410
116.393	0.410
116.393	0.410
116.683	0.405
116.683	0.410
116.393	0.410
116.683	0.405
116.393	0.410
116.393	0.405
116.393	0.405
116.683	0.405
116.393	0.410
116.683	0.405
116.683	0.405
116.683	0.400
116.683	0.400
116.683	0.405
116.683	0.400
116.972	0.405
116.972	0.405
116.683	0.410
116.683	0.405
116.972	0.396
116.972	0.410
116.683	0.410
116.972	0.410
117.262	0.405
117.262	0.410
116.972	0.410
116.683	0.410
117.262	0.405
117.262	0.405
116.972	0.410
117.262	0.410
117.262	0.391
117.262	0.410
117.262	0.405
116.972	0.435
116.972	0.415
117.262	0.420
117.551	0.405
117.551	0.396
117.262	0.405
117.551	0.405
117.841	0.400
117.551	0.405
117.551	0.410
117.551	0.439
117.262	0.415
117.262	0.400
117.551	0.405
117.551	0.410
117.551	0.405
117.841	0.400
117.841	0.410
117.841	0.405
117.841	0.400
117.551	0.410
117.551	0.410
117.841	0.405
117.841	0.410
117.841	0.405
117.841	0.410
117.841	0.396
118.131	0.405
118.131	0.405
118.131	0.410
118.131	0.405
117.841	0.410
118.420	0.410
118.131	0.400
118.131	0.405
118.131	0.405
118.131	0.405
118.420	0.410
118.420	0.410
118.131	0.410
118.420	0.410
118.420	0.400
118.131	0.430
118.420	0.415
118.420	0.400
118.420	0.400
118.420	0.400
118.710	0.405
118.420	0.405
118.420	0.410
118.710	0.405
118.131	0.410
118.710	0.405
118.420	0.405
118.710	0.396
118.710	0.405
118.710	0.405
118.710	0.405
118.710	0.405
118.710	0.410
118.710	0.420
118.420	0.386
118.999	0.400
118.999	0.405
118.999	0.400
118.999	0.400
118.999	0.400
119.289	0.400
119.289	0.405
118.999	0.405
118.999	0.405
118.999	0.405
118.999	0.405
119.289	0.400
118.999	0.405
119.289	0.405
119.289	0.396
119.289	0.400
119.289	0.405
119.289	0.410
119.289	0.396
119.289	0.405
119.289	0.396
119.578	0.396
119.578	0.410
119.578	0.405
119.578	0.352
119.578	0.400
119.578	0.405
119.868	0.400
119.868	0.391
119.578	0.400
119.578	0.400
119.868	0.396
119.868	0.405
119.578	0.405
119.868	0.405
119.578	0.400
119.868	0.400
119.868	0.400
119.868	0.405
119.868	0.405
119.868	0.405
119.868	0.400
120.158	0.410
120.158	0.405
119.868	0.405
120.158	0.396
120.158	0.396
120.158	0.400
120.158	0.396
120.158	0.405
120.158	0.400
120.158	0.400
120.158	0.400
120.447	0.405
120.447	0.400
120.447	0.396
120.447	0.400
120.447	0.396
120.447	0.400
120.447	0.400
120.447	0.400
120.447	0.400
120.447	0.391
120.447	0.410
120.447	0.396
120.447	0.405
120.447	0.400
120.447	0.405
120.447	0.405
120.737	0.405
120.737	0.410
120.737	0.400
120.737	0.400
120.737	0.386
120.737	0.396
120.447	0.400
120.737	0.391
121.026	0.396
120.737	0.410
120.737	0.400
120.737	0.396
121.026	0.400
121.026	0.400
120.737	0.396
121.026	0.396
121.316	0.410
121.026	0.396
121.026	0.415
121.026	0.396
121.026	0.400
121.026	0.405
121.316	0.405
121.316	0.400
121.026	0.400
121.316	0.405
121.606	0.405
121.606	0.396
121.316	0.400
121.316	0.405
121.606	0.405
121.606	0.405
121.316	0.415
121.606	0.400
121.606	0.400
121.606	0.400
121.606	0.400
121.606	0.396
121.606	0.400
121.606	0.400
121.606	0.405
121.606	0.405
121.606	0.405
121.606	0.410
121.895	0.400
121.895	0.400
121.895	0.400
121.895	0.396
121.606	0.405
122.185	0.396
121.895	0.410
121.895	0.400
121.895	0.415
122.185	0.396
121.895	0.400
122.185	0.410
122.185	0.386
122.185	0.396
122.185	0.400
122.185	0.400
122.185	0.400
122.185	0.405
122.474	0.400
122.185	0.396
122.185	0.400
122.474	0.396
122.185	0.405
122.185	0.391
122.185	0.400
122.185	0.405
122.474	0.405
122.474	0.386
122.474	0.405
122.185	0.400
122.474	0.405
122.474	0.386
122.764	0.400
122.764	0.400
122.474	0.400
122.764	0.410
122.764	0.400
122.764	0.405
122.764	0.400
122.764	0.391
122.764	0.410
122.474	0.400
122.764	0.405
123.054	0.400
123.054	0.396
123.054	0.396
122.764	0.396
123.054	0.400
123.054	0.396
122.764	0.410
123.343	0.396
122.764	0.396
122.764	0.410
123.343	0.400
123.054	0.396
123.054	0.391
123.054	0.396
123.054	0.396
123.633	0.415
123.343	0.400
123.054	0.400
123.343	0.415
123.343	0.400
123.343	0.396
123.343	0.396
123.054	0.391
123.922	0.391
123.343	0.400
123.343	0.396
123.343	0.391
123.633	0.400
123.633	0.396
123.343	0.400
123.343	0.396
123.633	0.386
123.922	0.400
123.633	0.396
123.922	0.396
123.922	0.396
124.212	0.400
123.343	0.400
123.922	0.400
123.633	0.405
123.922	0.396
123.922	0.400
123.922	0.391
123.922	0.400
123.922	0.400
123.922	0.396
123.922	0.410
123.922	0.396
123.343	0.400
123.922	0.391
123.922	0.400
124.501	0.396
124.212	0.396
124.212	0.396
124.212	0.396
124.501	0.396
124.501	0.391
124.212	0.400
124.212	0.391
124.212	0.396
124.501	0.391
124.501	0.396
124.212	0.396
124.501	0.396
124.501	0.400
124.791	0.400
124.501	0.396
124.212	0.400
124.501	0.396
124.501	0.400
124.501	0.396
124.501	0.396
124.212	0.396
124.791	0.400
124.791	0.396
124.501	0.400
124.791	0.396
124.791	0.391
124.791	0.386
124.501	0.396
125.081	0.391
125.081	0.396
124.791	0.396
124.791	0.396
125.081	0.396
125.081	0.386
125.081	0.391
124.791	0.400
125.081	0.391
125.081	0.400
125.081	0.391
125.081	0.400
125.370	0.396
125.081	0.400
125.081	0.400
125.370	0.396
125.081	0.400
125.081	0.400
125.370	0.396
125.370	0.400
125.081	0.396
125.370	0.391
125.660	0.391
125.660	0.400
125.370	0.391
125.370	0.400
125.370	0.396
125.660	0.396
125.370	0.386
125.370	0.396
125.370	0.391
125.660	0.391
125.660	0.391
125.660	0.381
125.660	0.386
125.949	0.391
125.660	0.391
125.660	0.391
125.660	0.396
125.660	0.386
125.949	0.396
125.660	0.400
125.949	0.410
125.949	0.386
125.949	0.396
125.660	0.396
125.949	0.400
125.660	0.396
125.949	0.386
125.949	0.396
125.949	0.396
125.949	0.400
125.949	0.400
126.239	0.396
126.239	0.396
125.949	0.396
126.239	0.396
126.239	0.396
126.239	0.386
126.239	0.400
126.239	0.400
126.239	0.386
126.239	0.391
126.239	0.391
126.239	0.391
126.529	0.400
126.818	0.386
126.239	0.396
126.529	0.391
126.529	0.391
126.529	0.386
126.529	0.391
126.818	0.391
126.529	0.396
126.529	0.391
126.529	0.391
126.818	0.391
127.108	0.391
126.529	0.386
126.818	0.386
126.818	0.396
126.818	0.400
126.529	0.405
126.818	0.391
127.108	0.391
126.818	0.386
126.818	0.391
126.818	0.396
127.108	0.400
126.818	0.396
126.818	0.400
127.108	0.396
127.108	0.386
127.108	0.400
126.818	0.400
127.108	0.400
127.108	0.396
127.108	0.396
127.108	0.400
127.108	0.396
127.108	0.400
127.397	0.396
127.397	0.405
127.397	0.405
127.108	0.381
127.108	0.391
127.397	0.396
127.397	0.381
127.108	0.376
127.108	0.376
127.397	0.391
127.397	0.405
127.397	0.391
127.687	0.391
127.397	0.386
127.687	0.391
127.397	0.391
127.687	0.391
127.687	0.386
127.687	0.386
127.687	0.386
127.687	0.391
127.687	0.386
127.687	0.396
127.687	0.381
127.687	0.396
127.977	0.391
127.977	0.391
127.977	0.396
127.687	0.396
127.977	0.391
127.977	0.391
128.266	0.400
127.977	0.391
127.977	0.391
128.266	0.396
128.266	0.391
128.266	0.396
128.266	0.391
128.266	0.386
128.266	0.391
127.977	0.386
128.266	0.405
128.266	0.391
128.266	0.391
128.266	0.391
128.266	0.386
128.266	0.381
128.266	0.381
128.556	0.386
128.266	0.391
128.556	0.391
128.556	0.381
128.556	0.381
128.266	0.391
128.266	0.391
128.556	0.400
128.556	0.386
128.845	0.386
128.845	0.391
128.845	0.376
128.556	0.386
128.845	0.391
128.845	0.391
128.845	0.391
128.556	0.391
128.845	0.386
128.845	0.391
128.845	0.396
128.845	0.391
129.135	0.396
129.135	0.396
129.135	0.386
129.135	0.391
128.845	0.400
129.135	0.391
129.135	0.386
129.135	0.386
129.135	0.391
128.845	0.386
129.425	0.391
129.135	0.381
129.135	0.386
129.425	0.386
129.425	0.386
129.425	0.386
129.425	0.386
129.425	0.386
128.556	0.386
129.135	0.381
129.425	0.386
129.714	0.386
129.425	0.391
129.425	0.396
129.425	0.381
129.714	0.396
129.425	0.391
129.425	0.391
129.714	0.391
129.714	0.391
129.714	0.386
129.714	0.391
129.714	0.400
130.004	0.386
130.004	0.391
130.293	0.386
129.714	0.386
130.293	0.386
129.714	0.386
130.004	0.386
130.004	0.386
130.004	0.376
130.004	0.386
129.714	0.391
130.004	0.391
130.004	0.376
130.004	0.391
130.004	0.391
130.004	0.386
130.293	0.386
130.293	0.391
130.004	0.391
130.004	0.391
130.583	0.391
130.293	0.391
130.583	0.386
130.583	0.376
130.293	0.381
130.872	0.391
130.293	0.391
130.293	0.381
130.583	0.356
130.583	0.386
130.293	0.391
130.293	0.386
130.872	0.386
130.583	0.386
130.583	0.386
130.583	0.381
130.583	0.386
130.872	0.391
130.583	0.396
130.583	0.386
130.583	0.381
130.583	0.391
130.583	0.386
130.872	0.386
130.872	0.391
130.583	0.396
130.872	0.391
131.162	0.386
130.872	0.381
130.872	0.386
130.872	0.376
131.452	0.391
131.162	0.381
131.162	0.381
130.872	0.381
131.162	0.381
131.162	0.391
131.162	0.381
131.162	0.381
131.162	0.391
131.162	0.381
131.452	0.376
131.452	0.381
131.162	0.391
130.872	0.391
131.452	0.391
131.452	0.381
131.162	0.386
131.452	0.386
131.452	0.391
131.741	0.391
131.452	0.386
131.452	0.381
131.452	0.381
131.452	0.396
131.741	0.376
131.741	0.386
131.452	0.376
131.452	0.386
131.741	0.371
131.741	0.386
131.452	0.381
131.452	0.386
131.741	0.381
131.741	0.391
131.741	0.381
131.741	0.381
131.741	0.381
131.452	0.415
131.741	0.386
131.741	0.381
131.741	0.376
132.031	0.381
132.031	0.386
131.741	0.391
131.741	0.386
132.031	0.396
132.031	0.386
132.031	0.381
132.031	0.386
132.031	0.381
132.031	0.386
132.320	0.391
132.031	0.386
132.320	0.376
132.320	0.381
132.320	0.381
132.320	0.396
132.320	0.386
132.320	0.376
132.031	0.371
132.320	0.376
132.610	0.381
132.610	0.381
132.320	0.391
132.320	0.381
132.610	0.381
132.320	0.381
132.900	0.386
132.610	0.371
132.610	0.381
132.610	0.381
132.610	0.386
132.610	0.386
132.610	0.381
132.610	0.332
132.900	0.386
132.610	0.386
132.610	0.386
132.900	0.386
132.610	0.391
133.189	0.371
132.900	0.381
132.900	0.381
132.900	0.381
132.900	0.381
132.900	0.391
132.900	0.386
132.900	0.381
133.189	0.386
132.900	0.386
133.189	0.386
133.189	0.386
132.900	0.386
133.189	0.376
133.189	0.391
133.189	0.386
133.189	0.381
133.189	0.381
133.189	0.386
133.189	0.381
133.479	0.405
133.189	0.381
133.189	0.391
133.479	0.386
133.479	0.381
133.479	0.386
133.479	0.386
133.479	0.381
133.479	0.381
133.768	0.381
133.479	0.371
133.479	0.381
133.479	0.381
133.479	0.386
133.768	0.371
133.768	0.376
133.479	0.391
133.479	0.381
133.768	0.381
133.768	0.381
133.768	0.381
134.058	0.376
133.768	0.381
133.768	0.381
134.058	0.381
134.058	0.381
134.058	0.391
133.768	0.376
134.058	0.386
134.058	0.381
133.768	0.386
133.768	0.386
133.768	0.376
134.058	0.391
134.058	0.376
134.058	0.386
134.058	0.381
134.058	0.376
134.058	0.381
134.348	0.386
134.058	0.381
134.058	0.391
134.348	0.381
134.348	0.386
134.348	0.386
134.637	0.381
134.637	0.381
134.348	0.381
134.637	0.381
134.348	0.391
134.348	0.376
134.348	0.386
134.637	0.386
134.637	0.381
134.637	0.386
134.348	0.381
134.637	0.381
134.637	0.381
134.637	0.386
134.927	0.381
134.927	0.386
134.637	0.386
134.927	0.386
134.637	0.386
134.637	0.381
134.927	0.391
134.927	0.381
135.216	0.391
134.927	0.386
134.927	0.381
136.085	0.386
134.927	0.386
134.927	0.347
134.927	0.381
134.927	0.386
135.216	0.371
134.927	0.376
135.216	0.381
135.216	0.381
135.216	0.381
135.216	0.376
134.927	0.376
135.216	0.376
135.506	0.376
135.216	0.381
135.216	0.376
135.506	0.376
135.216	0.376
135.216	0.376
135.216	0.381
135.506	0.381
135.216	0.381
135.216	0.386
135.506	0.386
135.506	0.381
135.506	0.366
135.506	0.376
135.506	0.376
135.506	0.376
135.506	0.381
135.795	0.391
135.795	0.396
135.506	0.376
135.506	0.376
135.795	0.386
135.795	0.386
135.506	0.371
135.795	0.376
135.795	0.347
136.085	0.381
136.085	0.371
136.085	0.381
135.795	0.376
136.085	0.376
135.795	0.371
135.795	0.376
136.085	0.381
136.085	0.381
136.085	0.376
135.795	0.371
136.085	0.371
136.085	0.376
136.085	0.371
136.085	0.366
136.085	0.376
136.085	0.371
136.085	0.381
136.375	0.381
136.375	0.376
136.375	0.391
136.375	0.371
136.375	0.376
136.375	0.381
136.375	0.381
136.375	0.376
136.085	0.366
136.664	0.391
136.375	0.376
136.375	0.376
136.375	0.381
136.954	0.376
136.664	0.376
136.375	0.376
136.664	0.376
135.795	0.381
136.664	0.376
136.664	0.376
136.664	0.376
136.664	0.381
136.954	0.376
136.664	0.371
136.664	0.376
136.664	0.376
136.664	0.381
136.664	0.376
136.954	0.381
136.954	0.381
136.954	0.376
137.243	0.381
136.954	0.381
136.954	0.371
136.954	0.366
136.954	0.366
136.954	0.381
136.954	0.361
136.954	0.371
137.243	0.376
137.243	0.376
137.243	0.381
137.243	0.371
136.954	0.371
137.243	0.376
137.243	0.371
137.243	0.371
137.243	0.371
137.243	0.366
137.533	0.371
137.533	0.366
137.533	0.366
137.243	0.371
137.243	0.371
137.243	0.371
137.243	0.386
137.243	0.376
137.533	0.376
137.533	0.376
137.533	0.381
137.533	0.376
137.533	0.371
137.823	0.381
137.823	0.381
137.533	0.371
137.823	0.371
137.533	0.371
137.823	0.376
137.533	0.371
138.112	0.386
137.823	0.376
137.533	0.371
137.533	0.371
137.823	0.371
137.823	0.381
137.823	0.376
137.823	0.361
138.112	0.391
137.823	0.371
138.112	0.376
138.112	0.371
138.112	0.371
138.402	0.371
138.112	0.366
138.402	0.366
138.112	0.371
138.402	0.366
138.112	0.371
138.112	0.356
138.112	0.371
138.112	0.371
138.402	0.376
138.112	0.366
138.112	0.376
138.402	0.366
138.691	0.371
138.691	0.366
138.402	0.371
138.402	0.371
138.402	0.371
138.691	0.386
138.402	0.366
138.402	0.381
138.981	0.366
138.691	0.371
138.691	0.376
138.691	0.376
138.691	0.366
138.691	0.376
138.691	0.376
138.691	0.371
138.691	0.376
138.691	0.376
138.691	0.376
138.691	0.376
138.691	0.381
138.691	0.376
138.691	0.376
138.981	0.371
138.981	0.376
138.981	0.371
139.271	0.376
138.691	0.410
138.981	0.381
138.981	0.376
138.981	0.386
138.981	0.371
138.981	0.381
139.271	0.371
138.981	0.366
139.271	0.366
139.271	0.366
139.271	0.366
139.271	0.371
139.271	0.371
139.271	0.376
139.271	0.366
139.850	0.361
139.560	0.371
139.560	0.371
139.271	0.366
139.850	0.376
139.271	0.371
139.560	0.371
139.271	0.376
139.560	0.371
139.271	0.371
139.560	0.376
139.271	0.371
139.560	0.376
139.560	0.376
139.560	0.386
139.560	0.352
139.560	0.371
139.560	0.376
139.850	0.366
139.560	0.371
139.560	0.366
139.560	0.366
139.850	0.371
139.850	0.371
139.850	0.371
139.850	0.376
139.850	0.361
139.850	0.371
139.850	0.371
139.850	0.371
139.850	0.366
139.850	0.371
140.139	0.371
139.850	0.376
140.139	0.371
139.850	0.381
139.850	0.366
140.139	0.391
140.139	0.371
140.139	0.371
140.139	0.371
140.139	0.371
140.139	0.371
140.139	0.371
140.139	0.376
140.139	0.376
140.429	0.371
140.139	0.386
140.429	0.371
140.429	0.376
140.429	0.366
140.139	0.361
140.718	0.371
140.429	0.386
140.718	0.361
140.718	0.371
140.718	0.366
140.139	0.347
140.718	0.361
140.429	0.371
140.718	0.371
140.718	0.366
140.429	0.371
140.718	0.366
140.718	0.371
140.718	0.366
140.718	0.366
140.718	0.361
141.008	0.366
140.718	0.356
140.718	0.371
141.008	0.371
140.718	0.361
140.718	0.366
140.718	0.366
141.008	0.361
140.718	0.371
141.008	0.371
140.718	0.371
141.298	0.366
141.008	0.366
140.718	0.371
141.008	0.371
141.298	0.381
141.008	0.371
141.298	0.366
141.008	0.366
141.298	0.361
141.298	0.381
141.587	0.371
141.587	0.371
141.298	0.391
141.298	0.371
141.298	0.371
141.587	0.366
141.298	0.371
141.298	0.371
141.587	0.371
141.587	0.371
141.298	0.386
141.298	0.381
141.298	0.371
141.587	0.371
141.587	0.371
141.587	0.371
141.587	0.366
141.587	0.366
141.587	0.371
141.587	0.361
141.877	0.371
141.587	0.352
141.587	0.366
141.587	0.361
141.587	0.371
141.877	0.366
141.587	0.376
141.877	0.361
141.877	0.366
142.166	0.366
141.877	0.366
142.166	0.371
142.166	0.366
141.877	0.356
142.166	0.366
142.166	0.361
142.166	0.366
142.456	0.361
142.166	0.366
142.166	0.361
142.166	0.366
142.166	0.356
142.456	0.366
142.166	0.376
142.456	0.366
142.166	0.371
142.456	0.366
142.166	0.361
142.456	0.366
142.166	0.376
142.456	0.366
142.456	0.371
142.166	0.371
142.166	0.371
142.456	0.371
142.746	0.371
142.746	0.366
142.456	0.371
142.456	0.371
142.746	0.366
142.456	0.361
142.746	0.366
142.746	0.381
142.456	0.366
142.456	0.366
142.746	0.356
142.746	0.352
143.035	0.366
142.746	0.366
143.035	0.356
142.746	0.376
143.035	0.361
143.035	0.366
142.746	0.371
142.746	0.361
143.035	0.361
142.746	0.361
143.035	0.361
143.035	0.366
143.035	0.361
143.614	0.396
143.035	0.371
143.035	0.371
143.035	0.366
143.035	0.371
143.325	0.366
143.325	0.366
143.035	0.366
143.325	0.356
143.325	0.366
143.325	0.371
143.325	0.366
143.325	0.361
143.325	0.371
143.035	0.366
143.614	0.361
143.325	0.366
143.614	0.381
143.614	0.361
143.614	0.366
143.325	0.366
143.614	0.366
143.904	0.361
143.904	0.356
143.325	0.366
143.614	0.366
143.614	0.361
143.614	0.361
143.614	0.366
143.614	0.366
143.614	0.361
143.614	0.361
143.904	0.361
143.904	0.356
144.194	0.347
143.904	0.361
143.904	0.366
