# Convert resistence to temperature
# T(K)	R/R0	(DR/DT)/Ro
13.00	0.00123	2.033E-04
13.10	0.00125	2.083E-04
13.20	0.00127	2.133E-04
13.30	0.00129	2.184E-04
13.40	0.00132	2.235E-04
13.50	0.00134	2.288E-04
13.60	0.00136	2.341E-04
13.70	0.00139	2.395E-04
13.80	0.00141	2.450E-04
13.90	0.00143	2.506E-04
14.00	0.00146	2.562E-04
14.10	0.00149	2.619E-04
14.20	0.00151	2.677E-04
14.30	0.00154	2.735E-04
14.40	0.00157	2.794E-04
14.50	0.00160	2.854E-04
14.60	0.00162	2.914E-04
14.70	0.00165	2.976E-04
14.80	0.00168	3.037E-04
14.90	0.00171	3.100E-04
15.00	0.00175	3.163E-04
15.10	0.00178	3.227E-04
15.20	0.00181	3.292E-04
15.30	0.00184	3.357E-04
15.40	0.00188	3.423E-04
15.50	0.00191	3.490E-04
15.60	0.00195	3.558E-04
15.70	0.00198	3.626E-04
15.80	0.00202	3.695E-04
15.90	0.00206	3.765E-04
16.00	0.00209	3.836E-04
16.10	0.00213	3.907E-04
16.20	0.00217	3.979E-04
16.30	0.00221	4.052E-04
16.40	0.00225	4.126E-04
16.50	0.00230	4.201E-04
16.60	0.00234	4.276E-04
16.70	0.00238	4.352E-04
16.80	0.00242	4.429E-04
16.90	0.00247	4.506E-04
17.00	0.00252	4.585E-04
17.10	0.00256	4.664E-04
17.20	0.00261	4.744E-04
17.30	0.00266	4.825E-04
17.40	0.00270	4.906E-04
17.50	0.00275	4.989E-04
17.60	0.00280	5.072E-04
17.70	0.00286	5.155E-04
17.80	0.00291	5.240E-04
17.90	0.00296	5.325E-04
18.00	0.00301	5.411E-04
18.10	0.00307	5.497E-04
18.20	0.00312	5.585E-04
18.30	0.00318	5.673E-04
18.40	0.00324	5.761E-04
18.50	0.00330	5.851E-04
18.60	0.00335	5.941E-04
18.70	0.00341	6.031E-04
18.80	0.00348	6.122E-04
18.90	0.00354	6.214E-04
19.00	0.00360	6.307E-04
19.10	0.00366	6.400E-04
19.20	0.00373	6.494E-04
19.30	0.00379	6.589E-04
19.40	0.00386	6.684E-04
19.50	0.00393	6.779E-04
19.60	0.00399	6.876E-04
19.70	0.00406	6.972E-04
19.80	0.00413	7.070E-04
19.90	0.00421	7.168E-04
20.00	0.00428	7.267E-04
20.10	0.00435	7.366E-04
20.20	0.00443	7.466E-04
20.30	0.00450	7.566E-04
20.40	0.00458	7.667E-04
20.50	0.00465	7.769E-04
20.60	0.00473	7.871E-04
20.70	0.00481	7.974E-04
20.80	0.00489	8.077E-04
20.90	0.00497	8.181E-04
21.00	0.00505	8.285E-04
21.10	0.00514	8.390E-04
21.20	0.00522	8.496E-04
21.30	0.00531	8.602E-04
21.40	0.00539	8.708E-04
21.50	0.00548	8.815E-04
21.60	0.00557	8.923E-04
21.70	0.00566	9.031E-04
21.80	0.00575	9.139E-04
21.90	0.00584	9.248E-04
22.00	0.00594	9.358E-04
22.10	0.00603	9.468E-04
22.20	0.00613	9.578E-04
22.30	0.00622	9.689E-04
22.40	0.00632	9.800E-04
22.50	0.00642	9.912E-04
22.60	0.00652	1.002E-03
22.70	0.00662	1.014E-03
22.80	0.00672	1.025E-03
22.90	0.00682	1.036E-03
23.00	0.00693	1.048E-03
23.10	0.00703	1.059E-03
23.20	0.00714	1.070E-03
23.30	0.00725	1.082E-03
23.40	0.00736	1.093E-03
23.50	0.00747	1.105E-03
23.60	0.00758	1.117E-03
23.70	0.00769	1.128E-03
23.80	0.00780	1.140E-03
23.90	0.00792	1.151E-03
24.00	0.00803	1.163E-03
24.10	0.00815	1.175E-03
24.20	0.00827	1.187E-03
24.30	0.00839	1.198E-03
24.40	0.00851	1.210E-03
24.50	0.00863	1.222E-03
24.60	0.00875	1.234E-03
24.70	0.00888	1.245E-03
24.80	0.00900	1.257E-03
24.90	0.00913	1.269E-03
25.00	0.00926	1.281E-03
25.10	0.00938	1.293E-03
25.20	0.00951	1.305E-03
25.30	0.00964	1.317E-03
25.40	0.00978	1.329E-03
25.50	0.00991	1.341E-03
25.60	0.01005	1.353E-03
25.70	0.01018	1.365E-03
25.80	0.01032	1.377E-03
25.90	0.01046	1.389E-03
26.00	0.01060	1.401E-03
26.10	0.01074	1.413E-03
26.20	0.01088	1.425E-03
26.30	0.01102	1.437E-03
26.40	0.01117	1.449E-03
26.50	0.01131	1.461E-03
26.60	0.01146	1.473E-03
26.70	0.01161	1.485E-03
26.80	0.01176	1.497E-03
26.90	0.01191	1.509E-03
27.00	0.01206	1.521E-03
27.10	0.01221	1.534E-03
27.20	0.01236	1.546E-03
27.30	0.01252	1.558E-03
27.40	0.01268	1.570E-03
27.50	0.01283	1.582E-03
27.60	0.01299	1.594E-03
27.70	0.01315	1.606E-03
27.80	0.01331	1.619E-03
27.90	0.01348	1.631E-03
28.00	0.01364	1.643E-03
28.10	0.01380	1.655E-03
28.20	0.01397	1.667E-03
28.30	0.01414	1.679E-03
28.40	0.01431	1.691E-03
28.50	0.01448	1.704E-03
28.60	0.01465	1.716E-03
28.70	0.01482	1.728E-03
28.80	0.01499	1.740E-03
28.90	0.01517	1.752E-03
29.00	0.01534	1.764E-03
29.10	0.01552	1.777E-03
29.20	0.01570	1.789E-03
29.30	0.01588	1.801E-03
29.40	0.01606	1.813E-03
29.50	0.01624	1.825E-03
29.60	0.01642	1.837E-03
29.70	0.01661	1.849E-03
29.80	0.01679	1.861E-03
29.90	0.01698	1.874E-03
30.00	0.01717	1.886E-03
30.10	0.01736	1.898E-03
30.20	0.01755	1.910E-03
30.30	0.01774	1.922E-03
30.40	0.01793	1.934E-03
30.50	0.01813	1.946E-03
30.60	0.01832	1.958E-03
30.70	0.01852	1.970E-03
30.80	0.01871	1.982E-03
30.90	0.01891	1.994E-03
31.00	0.01911	2.006E-03
31.10	0.01931	2.018E-03
31.20	0.01952	2.030E-03
31.30	0.01972	2.042E-03
31.40	0.01993	2.054E-03
31.50	0.02013	2.066E-03
31.60	0.02034	2.078E-03
31.70	0.02055	2.090E-03
31.80	0.02076	2.102E-03
31.90	0.02097	2.113E-03
32.00	0.02118	2.125E-03
32.10	0.02139	2.137E-03
32.20	0.02161	2.149E-03
32.30	0.02182	2.161E-03
32.40	0.02204	2.172E-03
32.50	0.02226	2.184E-03
32.60	0.02248	2.196E-03
32.70	0.02270	2.207E-03
32.80	0.02292	2.219E-03
32.90	0.02314	2.231E-03
33.00	0.02336	2.242E-03
33.10	0.02359	2.254E-03
33.20	0.02381	2.266E-03
33.30	0.02404	2.277E-03
33.40	0.02427	2.289E-03
33.50	0.02450	2.300E-03
33.60	0.02473	2.311E-03
33.70	0.02496	2.323E-03
33.80	0.02519	2.334E-03
33.90	0.02543	2.346E-03
34.00	0.02566	2.357E-03
34.10	0.02590	2.368E-03
34.20	0.02614	2.380E-03
34.30	0.02638	2.391E-03
34.40	0.02662	2.402E-03
34.50	0.02686	2.413E-03
34.60	0.02710	2.424E-03
34.70	0.02734	2.435E-03
34.80	0.02758	2.447E-03
34.90	0.02783	2.458E-03
35.00	0.02808	2.469E-03
35.10	0.02832	2.480E-03
35.20	0.02857	2.491E-03
35.30	0.02882	2.501E-03
35.40	0.02907	2.512E-03
35.50	0.02932	2.523E-03
35.60	0.02958	2.534E-03
35.70	0.02983	2.545E-03
35.80	0.03009	2.556E-03
35.90	0.03034	2.566E-03
36.00	0.03060	2.577E-03
36.10	0.03086	2.588E-03
36.20	0.03112	2.598E-03
36.30	0.03138	2.601E-03
36.40	0.03164	2.619E-03
36.50	0.03190	2.630E-03
36.60	0.03216	2.644E-03
36.70	0.03243	2.651E-03
36.80	0.03269	2.661E-03
36.90	0.03296	2.671E-03
37.00	0.03323	2.682E-03
37.10	0.03350	2.692E-03
37.20	0.03377	2.702E-03
37.30	0.03404	2.712E-03
37.40	0.03431	2.722E-03
37.50	0.03458	2.733E-03
37.60	0.03486	2.743E-03
37.70	0.03513	2.753E-03
37.80	0.03541	2.763E-03
37.90	0.03568	2.773E-03
38.00	0.03596	2.783E-03
38.10	0.03624	2.792E-03
38.20	0.03652	2.802E-03
38.30	0.03680	2.812E-03
38.40	0.03708	2.822E-03
38.50	0.03737	2.832E-03
38.60	0.03765	2.841E-03
38.70	0.03793	2.851E-03
38.80	0.03822	2.861E-03
38.90	0.03851	2.870E-03
39.00	0.03879	2.880E-03
39.10	0.03908	2.889E-03
39.20	0.03937	2.899E-03
39.30	0.03966	2.908E-03
39.40	0.03995	2.917E-03
39.50	0.04024	2.927E-03
39.60	0.04054	2.936E-03
39.70	0.04083	2.945E-03
39.80	0.04113	2.955E-03
39.90	0.04142	2.964E-03
40.00	0.04172	2.973E-03
40.10	0.04202	2.982E-03
40.20	0.04232	2.991E-03
40.30	0.04262	3.000E-03
40.40	0.04292	3.009E-03
40.50	0.04322	3.018E-03
40.60	0.04352	3.027E-03
40.70	0.04382	3.036E-03
40.80	0.04413	3.045E-03
40.90	0.04443	3.053E-03
41.00	0.04474	3.062E-03
41.10	0.04504	3.071E-03
41.20	0.04535	3.080E-03
41.30	0.04566	3.088E-03
41.40	0.04597	3.097E-03
41.50	0.04628	3.105E-03
41.60	0.04659	3.114E-03
41.70	0.04690	3.122E-03
41.80	0.04722	3.131E-03
41.90	0.04753	3.139E-03
42.00	0.04784	3.148E-03
42.10	0.04816	3.156E-03
42.20	0.04847	3.164E-03
42.30	0.04879	3.173E-03
42.40	0.04911	3.181E-03
42.50	0.04943	3.189E-03
42.60	0.04975	3.197E-03
42.70	0.05007	3.205E-03
42.80	0.05039	3.213E-03
42.90	0.05071	3.221E-03
43.00	0.05103	3.229E-03
43.10	0.05136	3.237E-03
43.20	0.05168	3.245E-03
43.30	0.05200	3.253E-03
43.40	0.05233	3.261E-03
43.50	0.05266	3.269E-03
43.60	0.05298	3.276E-03
43.70	0.05331	3.284E-03
43.80	0.05364	3.292E-03
43.90	0.05397	3.300E-03
44.00	0.05430	3.307E-03
44.10	0.05463	3.315E-03
44.20	0.05496	3.322E-03
44.30	0.05530	3.330E-03
44.40	0.05563	3.337E-03
44.50	0.05596	3.345E-03
44.60	0.05630	3.352E-03
44.70	0.05663	3.359E-03
44.80	0.05697	3.367E-03
44.90	0.05731	3.374E-03
45.00	0.05764	3.381E-03
45.10	0.05798	3.388E-03
45.20	0.05832	3.396E-03
45.30	0.05866	3.403E-03
45.40	0.05900	3.410E-03
45.50	0.05934	3.417E-03
45.60	0.05969	3.424E-03
45.70	0.06003	3.431E-03
45.80	0.06037	3.438E-03
45.90	0.06072	3.445E-03
46.00	0.06106	3.452E-03
46.10	0.06141	3.458E-03
46.20	0.06175	3.465E-03
46.30	0.06210	3.472E-03
46.40	0.06245	3.479E-03
46.50	0.06280	3.485E-03
46.60	0.06324	3.492E-03
46.70	0.06349	3.499E-03
46.80	0.06384	3.505E-03
46.90	0.06420	3.512E-03
47.00	0.06455	3.518E-03
47.10	0.06490	3.525E-03
47.20	0.06525	3.531E-03
47.30	0.06561	3.538E-03
47.40	0.06596	3.544E-03
47.50	0.06631	3.550E-03
47.60	0.06667	3.557E-03
47.70	0.06703	3.563E-03
47.80	0.06738	3.569E-03
47.90	0.06774	3.575E-03
48.00	0.06810	3.581E-03
48.10	0.06846	3.587E-03
48.20	0.06881	3.594E-03
48.30	0.06917	3.600E-03
48.40	0.06953	3.606E-03
48.50	0.06990	3.612E-03
48.60	0.07026	3.618E-03
48.70	0.07062	3.623E-03
48.80	0.07098	3.629E-03
48.90	0.07134	3.635E-03
49.00	0.07171	3.641E-03
49.10	0.07207	3.647E-03
49.20	0.07244	3.652E-03
49.30	0.07280	3.658E-03
49.40	0.07317	3.664E-03
49.50	0.07354	3.669E-03
49.60	0.07390	3.675E-03
49.70	0.07427	3.681E-03
49.80	0.07464	3.686E-03
49.90	0.07501	3.692E-03
50.00	0.07538	3.697E-03
50.10	0.07575	3.702E-03
50.20	0.07612	3.708E-03
50.30	0.07649	3.713E-03
50.40	0.07686	3.718E-03
50.50	0.07723	3.724E-03
50.60	0.07761	3.729E-03
50.70	0.07798	3.734E-03
50.80	0.07835	3.739E-03
50.90	0.07873	3.745E-03
51.00	0.07910	3.750E-03
51.10	0.07948	3.755E-03
51.20	0.07985	3.760E-03
51.30	0.08023	3.765E-03
51.40	0.08061	3.770E-03
51.50	0.08098	3.775E-03
51.60	0.08136	3.780E-03
51.70	0.08174	3.785E-03
51.80	0.08212	3.790E-03
51.90	0.08250	3.794E-03
52.00	0.08288	3.799E-03
52.10	0.08326	3.804E-03
52.20	0.08364	3.809E-03
52.30	0.08402	3.813E-03
52.40	0.08440	3.818E-03
52.50	0.08478	3.823E-03
52.60	0.08516	3.827E-03
52.70	0.08555	3.832E-03
52.80	0.08593	3.837E-03
52.90	0.08631	3.841E-03
53.00	0.08670	3.846E-03
53.10	0.08708	3.850E-03
53.20	0.08747	3.854E-03
53.30	0.08785	3.859E-03
53.40	0.08824	3.863E-03
53.50	0.08863	3.868E-03
53.60	0.08901	3.872E-03
53.70	0.08940	3.876E-03
53.80	0.08979	3.880E-03
53.90	0.09018	3.885E-03
54.00	0.09057	3.889E-03
54.10	0.09096	3.893E-03
54.20	0.09134	3.897E-03
54.30	0.09173	3.901E-03
54.40	0.09212	3.905E-03
54.50	0.09252	3.909E-03
54.60	0.09291	3.913E-03
54.70	0.09330	3.917E-03
54.80	0.09369	3.921E-03
54.90	0.09408	3.925E-03
55.00	0.09448	3.929E-03
55.10	0.09487	3.933E-03
55.20	0.09526	3.937E-03
55.30	0.09566	3.941E-03
55.40	0.09605	3.945E-03
55.50	0.09644	3.948E-03
55.60	0.09684	3.952E-03
55.70	0.09723	3.956E-03
55.80	0.09763	3.959E-03
55.90	0.09803	3.963E-03
56.00	0.09842	3.967E-03
56.10	0.09882	3.970E-03
56.20	0.09922	3.974E-03
56.30	0.09962	3.977E-03
56.40	0.10001	3.981E-03
56.50	0.10041	3.985E-03
56.60	0.10081	3.988E-03
56.70	0.10121	3.991E-03
56.80	0.10161	3.995E-03
56.90	0.10201	3.998E-03
57.00	0.10241	4.002E-03
57.10	0.10281	4.005E-03
57.20	0.10321	4.008E-03
57.30	0.10361	4.002E-03
57.40	0.10401	4.015E-03
57.50	0.10441	4.018E-03
57.60	0.10481	4.021E-03
57.70	0.10522	4.025E-03
57.80	0.10562	4.028E-03
57.90	0.10602	4.031E-03
58.00	0.10643	4.034E-03
58.10	0.10683	4.037E-03
58.20	0.10723	4.040E-03
58.30	0.10764	4.043E-03
58.40	0.10804	4.046E-03
58.50	0.10845	4.049E-03
58.60	0.10885	4.052E-03
58.70	0.10926	4.055E-03
58.80	0.10966	4.058E-03
58.90	0.11007	4.061E-03
59.00	0.11048	4.064E-03
59.10	0.11088	4.067E-03
59.20	0.11129	4.070E-03
59.30	0.11170	4.073E-03
59.40	0.11210	4.075E-03
59.50	0.11251	4.078E-03
59.60	0.11292	4.081E-03
59.70	0.11333	4.084E-03
59.80	0.11374	4.086E-03
59.90	0.11414	4.089E-03
60.00	0.11455	4.092E-03
60.10	0.11496	4.094E-03
60.20	0.11537	4.097E-03
60.30	0.11578	4.100E-03
60.40	0.11619	4.102E-03
60.50	0.11660	4.105E-03
60.60	0.11701	4.107E-03
60.70	0.11742	4.110E-03
60.80	0.11783	4.112E-03
60.90	0.11825	4.115E-03
61.00	0.11866	4.117E-03
61.10	0.11907	4.120E-03
61.20	0.11948	4.122E-03
61.30	0.11989	4.125E-03
61.40	0.12031	4.127E-03
61.50	0.12072	4.129E-03
61.60	0.12113	4.132E-03
61.70	0.12155	4.134E-03
61.80	0.12196	4.136E-03
61.90	0.12237	4.139E-03
62.00	0.12279	4.141E-03
62.10	0.12320	4.143E-03
62.20	0.12362	4.145E-03
62.30	0.12403	4.148E-03
62.40	0.12445	4.150E-03
62.50	0.12486	4.152E-03
62.60	0.12528	4.154E-03
62.70	0.12569	4.156E-03
62.80	0.12611	4.158E-03
62.90	0.12652	4.161E-03
63.00	0.12694	4.163E-03
63.10	0.12736	4.165E-03
63.20	0.12777	4.167E-03
63.30	0.12819	4.169E-03
63.40	0.12861	4.171E-03
63.50	0.12902	4.173E-03
63.60	0.12944	4.175E-03
63.70	0.12986	4.177E-03
63.80	0.13028	4.179E-03
63.90	0.13069	4.181E-03
64.00	0.13111	4.183E-03
64.10	0.13153	4.184E-03
64.20	0.13195	4.186E-03
64.30	0.13237	4.188E-03
64.40	0.13279	4.190E-03
64.50	0.13321	4.192E-03
64.60	0.13362	4.194E-03
64.70	0.13404	4.195E-03
64.80	0.13446	4.197E-03
64.90	0.13488	4.199E-03
65.00	0.13530	4.201E-03
65.10	0.13572	4.203E-03
65.20	0.13614	4.204E-03
65.30	0.13656	4.206E-03
65.40	0.13699	4.208E-03
65.50	0.13741	4.209E-03
65.60	0.13783	4.211E-03
65.70	0.13825	4.213E-03
65.80	0.13867	4.214E-03
65.90	0.13909	4.216E-03
66.00	0.13951	4.217E-03
66.10	0.13993	4.219E-03
66.20	0.14036	4.221E-03
66.30	0.14078	4.222E-03
66.40	0.14120	4.224E-03
66.50	0.14162	4.225E-03
66.60	0.14205	4.227E-03
66.70	0.14247	4.228E-03
66.80	0.14289	4.230E-03
66.90	0.14331	4.231E-03
67.00	0.14374	4.233E-03
67.10	0.14416	4.234E-03
67.20	0.14458	4.236E-03
67.30	0.14501	4.237E-03
67.40	0.14543	4.238E-03
67.50	0.14586	4.240E-03
67.60	0.14628	4.241E-03
67.70	0.14670	4.242E-03
67.80	0.14713	4.244E-03
67.90	0.14755	4.245E-03
68.00	0.14798	4.246E-03
68.10	0.14840	4.248E-03
68.20	0.14883	4.249E-03
68.30	0.14925	4.250E-03
68.40	0.14968	4.252E-03
68.50	0.15010	4.253E-03
68.60	0.15053	4.254E-03
68.70	0.15095	4.255E-03
68.80	0.15138	4.257E-03
68.90	0.15180	4.258E-03
69.00	0.15223	4.259E-03
69.10	0.15266	4.260E-03
69.20	0.15308	4.261E-03
69.30	0.15351	4.263E-03
69.40	0.15394	4.264E-03
69.50	0.15436	4.265E-03
69.60	0.15479	4.266E-03
69.70	0.15521	4.267E-03
69.80	0.15564	4.268E-03
69.90	0.15607	4.269E-03
70.00	0.15650	4.270E-03
70.10	0.15692	4.271E-03
70.20	0.15735	4.273E-03
70.30	0.15778	4.274E-03
70.40	0.15820	4.275E-03
70.50	0.15863	4.276E-03
70.60	0.15906	4.277E-03
70.70	0.15949	4.278E-03
70.80	0.15992	4.279E-03
70.90	0.16034	4.280E-03
71.00	0.16077	4.281E-03
71.10	0.16120	4.282E-03
71.20	0.16163	4.283E-03
71.30	0.16206	4.284E-03
71.40	0.16248	4.284E-03
71.50	0.16291	4.285E-03
71.60	0.16334	4.286E-03
71.70	0.16377	4.287E-03
71.80	0.16420	4.288E-03
71.90	0.16463	4.289E-03
72.00	0.16506	4.290E-03
72.10	0.16549	4.291E-03
72.20	0.16591	4.292E-03
72.30	0.16634	4.292E-03
72.40	0.16677	4.293E-03
72.50	0.16720	4.294E-03
72.60	0.16763	4.295E-03
72.70	0.16806	4.296E-03
72.80	0.16849	4.297E-03
72.90	0.16892	4.297E-03
73.00	0.16935	4.298E-03
73.10	0.16978	4.299E-03
73.20	0.17021	4.300E-03
73.30	0.17064	4.300E-03
73.40	0.17107	4.301E-03
73.50	0.17150	4.302E-03
73.60	0.17193	4.303E-03
73.70	0.17236	4.303E-03
73.80	0.17279	4.304E-03
73.90	0.17322	4.305E-03
74.00	0.17365	4.305E-03
74.10	0.17408	4.306E-03
74.20	0.17451	4.307E-03
74.30	0.17494	4.307E-03
74.40	0.17538	4.308E-03
74.50	0.17581	4.309E-03
74.60	0.17624	4.309E-03
74.70	0.17667	4.310E-03
74.80	0.17710	4.311E-03
74.90	0.17753	4.311E-03
75.00	0.17796	4.312E-03
75.10	0.17839	4.313E-03
75.20	0.17882	4.313E-03
75.30	0.17926	4.314E-03
75.40	0.17969	4.314E-03
75.50	0.18012	4.315E-03
75.60	0.18055	4.315E-03
75.70	0.18098	4.316E-03
75.80	0.18141	4.317E-03
75.90	0.18184	4.317E-03
76.00	0.18228	4.318E-03
76.10	0.18271	4.318E-03
76.20	0.18314	4.319E-03
76.30	0.18357	4.319E-03
76.40	0.18400	4.320E-03
76.50	0.18444	4.320E-03
76.60	0.18487	4.321E-03
76.70	0.18530	4.321E-03
76.80	0.18573	4.322E-03
76.90	0.18616	4.322E-03
77.00	0.18660	4.323E-03
77.10	0.18703	4.323E-03
77.20	0.18746	4.324E-03
77.30	0.18789	4.324E-03
77.40	0.18833	4.324E-03
77.50	0.18876	4.325E-03
77.60	0.18919	4.325E-03
77.70	0.18962	4.326E-03
77.80	0.19006	4.326E-03
77.90	0.19049	4.327E-03
78.00	0.19092	4.327E-03
78.10	0.19135	4.327E-03
78.20	0.19179	4.328E-03
78.30	0.19222	4.328E-03
78.40	0.19265	4.328E-03
78.50	0.19309	4.329E-03
78.60	0.19352	4.329E-03
78.70	0.19395	4.330E-03
78.80	0.19438	4.330E-03
78.90	0.19482	4.330E-03
79.00	0.19525	4.331E-03
79.10	0.19568	4.331E-03
79.20	0.19612	4.331E-03
79.30	0.19655	4.332E-03
79.40	0.19698	4.332E-03
79.50	0.19742	4.332E-03
79.60	0.19785	4.333E-03
79.70	0.19828	4.333E-03
79.80	0.19872	4.333E-03
79.90	0.19915	4.333E-03
80.00	0.19958	4.334E-03
80.10	0.20002	4.334E-03
80.20	0.20045	4.334E-03
80.30	0.20088	4.335E-03
80.40	0.20132	4.335E-03
80.50	0.20175	4.335E-03
80.60	0.20218	4.335E-03
80.70	0.20262	4.336E-03
80.80	0.20305	4.336E-03
80.90	0.20348	4.336E-03
81.00	0.20392	4.336E-03
81.10	0.20435	4.336E-03
81.20	0.20478	4.337E-03
81.30	0.20522	4.337E-03
81.40	0.20565	4.337E-03
81.50	0.20609	4.337E-03
81.60	0.20652	4.338E-03
81.70	0.20695	4.338E-03
81.80	0.20739	4.338E-03
81.90	0.20782	4.338E-03
82.00	0.20825	4.338E-03
82.10	0.20869	4.338E-03
82.20	0.20912	4.339E-03
82.30	0.20956	4.339E-03
82.40	0.20999	4.339E-03
82.50	0.21042	4.339E-03
82.60	0.21086	4.339E-03
82.70	0.21129	4.339E-03
82.80	0.21173	4.340E-03
82.90	0.21216	4.340E-03
83.00	0.21259	4.340E-03
83.10	0.21303	4.340E-03
83.20	0.21346	4.340E-03
83.30	0.21390	4.340E-03
83.40	0.21433	4.340E-03
83.50	0.21476	4.340E-03
83.60	0.21520	4.341E-03
83.70	0.21563	4.341E-03
83.80	0.21607	4.341E-03
83.90	0.21650	4.341E-03
84.00	0.21693	4.341E-03
84.10	0.21737	4.341E-03
84.20	0.21780	4.341E-03
84.30	0.21824	4.341E-03
84.40	0.21867	4.341E-03
84.50	0.21910	4.341E-03
84.60	0.21954	4.341E-03
84.70	0.21997	4.341E-03
84.80	0.22041	4.342E-03
84.90	0.22084	4.342E-03
85.00	0.22128	4.342E-03
85.10	0.22171	4.342E-03
85.20	0.22214	4.342E-03
85.30	0.22258	4.342E-03
85.40	0.22301	4.342E-03
85.50	0.22345	4.342E-03
85.60	0.22388	4.342E-03
85.70	0.22431	4.342E-03
85.80	0.22475	4.342E-03
85.90	0.22518	4.342E-03
86.00	0.22562	4.342E-03
86.10	0.22605	4.342E-03
86.20	0.22649	4.342E-03
86.30	0.22692	4.342E-03
86.40	0.22735	4.342E-03
86.50	0.22779	4.342E-03
86.60	0.22822	4.342E-03
86.70	0.22866	4.342E-03
86.80	0.22909	4.342E-03
86.90	0.22952	4.342E-03
87.00	0.22996	4.342E-03
87.10	0.23039	4.342E-03
87.20	0.23083	4.342E-03
87.30	0.23126	4.342E-03
87.40	0.23170	4.342E-03
87.50	0.23213	4.342E-03
87.60	0.23256	4.342E-03
87.70	0.23300	4.342E-03
87.80	0.23343	4.342E-03
87.90	0.23387	4.342E-03
88.00	0.23430	4.342E-03
88.10	0.23474	4.342E-03
88.20	0.23517	4.342E-03
88.30	0.23560	4.342E-03
88.40	0.23604	4.342E-03
88.50	0.23647	4.341E-03
88.60	0.23691	4.341E-03
88.70	0.23734	4.341E-03
88.80	0.23777	4.341E-03
88.90	0.23821	4.341E-03
89.00	0.23864	4.341E-03
89.10	0.23908	4.341E-03
89.20	0.23951	4.341E-03
89.30	0.23994	4.341E-03
89.40	0.24038	4.341E-03
89.50	0.24081	4.341E-03
89.60	0.24125	4.341E-03
89.70	0.24168	4.341E-03
89.80	0.24212	4.340E-03
89.90	0.24255	4.340E-03
90.00	0.24298	4.340E-03
90.10	0.24342	4.340E-03
90.20	0.24385	4.340E-03
90.30	0.24429	4.340E-03
90.40	0.24472	4.340E-03
90.50	0.24515	4.340E-03
90.60	0.24559	4.340E-03
90.70	0.24602	4.339E-03
90.80	0.24646	4.339E-03
90.90	0.24689	4.339E-03
91.00	0.24732	4.339E-03
91.10	0.24776	4.339E-03
91.20	0.24819	4.339E-03
91.30	0.24862	4.339E-03
91.40	0.24906	4.339E-03
91.50	0.24949	4.338E-03
91.60	0.24993	4.338E-03
91.70	0.25036	4.338E-03
91.80	0.25079	4.338E-03
91.90	0.25123	4.338E-03
92.00	0.25166	4.338E-03
92.10	0.25210	4.338E-03
92.20	0.25253	4.337E-03
92.30	0.25296	4.337E-03
92.40	0.25340	4.337E-03
92.50	0.25383	4.337E-03
92.60	0.25426	4.337E-03
92.70	0.25470	4.337E-03
92.80	0.25513	4.337E-03
92.90	0.25556	4.336E-03
93.00	0.25600	4.336E-03
93.10	0.25643	4.336E-03
93.20	0.25687	4.336E-03
93.30	0.25730	4.336E-03
93.40	0.25773	4.336E-03
93.50	0.25817	4.335E-03
93.60	0.25860	4.335E-03
93.70	0.25903	4.335E-03
93.80	0.25947	4.335E-03
93.90	0.25990	4.335E-03
94.00	0.26033	4.334E-03
94.10	0.26008	4.334E-03
94.20	0.26120	4.334E-03
94.30	0.26163	4.334E-03
94.40	0.26207	4.334E-03
94.50	0.26250	4.334E-03
94.60	0.26293	4.333E-03
94.70	0.26337	4.333E-03
94.80	0.26380	4.333E-03
94.90	0.26423	4.333E-03
95.00	0.26467	4.333E-03
95.10	0.26510	4.332E-03
95.20	0.26553	4.332E-03
95.30	0.26597	4.332E-03
95.40	0.26640	4.332E-03
95.50	0.26683	4.332E-03
95.60	0.26727	4.331E-03
95.70	0.26770	4.331E-03
95.80	0.26813	4.331E-03
95.90	0.26857	4.331E-03
96.00	0.26900	4.330E-03
96.10	0.26943	4.330E-03
96.20	0.26986	4.330E-03
96.30	0.27030	4.330E-03
96.40	0.27073	4.330E-03
96.50	0.27116	4.329E-03
96.60	0.27160	4.329E-03
96.70	0.27203	4.329E-03
96.80	0.27246	4.329E-03
96.90	0.27290	4.328E-03
97.00	0.27333	4.328E-03
97.10	0.27376	4.328E-03
97.20	0.27419	4.328E-03
97.30	0.27463	4.328E-03
97.40	0.27506	4.327E-03
97.50	0.27549	4.327E-03
97.60	0.27592	4.327E-03
97.70	0.27636	4.327E-03
97.80	0.27679	4.326E-03
97.90	0.27722	4.326E-03
98.00	0.27766	4.326E-03
98.10	0.27809	4.326E-03
98.20	0.27852	4.325E-03
98.30	0.27895	4.325E-03
98.40	0.27939	4.325E-03
98.50	0.27982	4.325E-03
98.60	0.28025	4.324E-03
98.70	0.28068	4.324E-03
98.80	0.28112	4.324E-03
98.90	0.28155	4.324E-03
99.00	0.28198	4.323E-03
99.10	0.28241	4.323E-03
99.20	0.28284	4.323E-03
99.30	0.28328	4.323E-03
99.40	0.28371	4.322E-03
99.50	0.28414	4.322E-03
99.60	0.28457	4.322E-03
99.70	0.28501	4.322E-03
99.80	0.28544	4.321E-03
99.90	0.28587	4.321E-03
100.00	0.28630	4.321E-03
101.00	0.29062	4.318E-03
102.00	0.29494	4.315E-03
103.00	0.29925	4.313E-03
104.00	0.30356	4.310E-03
105.00	0.30787	4.307E-03
106.00	0.31218	4.304E-03
107.00	0.31648	4.301E-03
108.00	0.32078	4.298E-03
109.00	0.32507	4.295E-03
110.00	0.32937	4.291E-03
111.00	0.33366	4.288E-03
112.00	0.33794	4.285E-03
113.00	0.34223	4.282E-03
114.00	0.34651	4.279E-03
115.00	0.35079	4.276E-03
116.00	0.35506	4.272E-03
117.00	0.35933	4.269E-03
118.00	0.36360	4.266E-03
119.00	0.36786	4.263E-03
120.00	0.37212	4.260E-03
121.00	0.37638	4.257E-03
122.00	0.38064	4.253E-03
123.00	0.38489	4.250E-03
124.00	0.38914	4.247E-03
125.00	0.39338	4.244E-03
126.00	0.39763	4.241E-03
127.00	0.40187	4.238E-03
128.00	0.40610	4.235E-03
129.00	0.41034	4.232E-03
130.00	0.41457	4.229E-03
131.00	0.41880	4.227E-03
132.00	0.42302	4.224E-03
133.00	0.42724	4.221E-03
134.00	0.43146	4.218E-03
135.00	0.43568	4.215E-03
136.00	0.43989	4.212E-03
137.00	0.44410	4.210E-03
138.00	0.44831	4.207E-03
139.00	0.45252	4.204E-03
140.00	0.45672	4.202E-03
141.00	0.46092	4.199E-03
142.00	0.46512	4.197E-03
143.00	0.46931	4.194E-03
144.00	0.47351	4.191E-03
145.00	0.47770	4.189E-03
146.00	0.48188	4.187E-03
147.00	0.48607	4.184E-03
148.00	0.49025	4.182E-03
149.00	0.49443	4.179E-03
150.00	0.49861	4.177E-03
151.00	0.50279	4.175E-03
152.00	0.50696	4.172E-03
153.00	0.51113	4.170E-03
154.00	0.51530	4.168E-03
155.00	0.51947	4.166E-03
156.00	0.52363	4.163E-03
157.00	0.52779	4.161E-03
158.00	0.53195	4.159E-03
159.00	0.53611	4.157E-03
160.00	0.54027	4.155E-03
161.00	0.54442	4.153E-03
162.00	0.54857	4.151E-03
163.00	0.55272	4.149E-03
164.00	0.55687	4.147E-03
165.00	0.56102	4.145E-03
166.00	0.56516	4.143E-03
167.00	0.56930	4.141E-03
168.00	0.57344	4.139E-03
169.00	0.57758	4.137E-03
170.00	0.58171	4.135E-03
171.00	0.58585	4.133E-03
172.00	0.58998	4.131E-03
173.00	0.59411	4.129E-03
174.00	0.59824	4.127E-03
175.00	0.60236	4.125E-03
176.00	0.60649	4.124E-03
177.00	0.61061	4.122E-03
178.00	0.61473	4.120E-03
179.00	0.61885	4.118E-03
180.00	0.62297	4.117E-03
181.00	0.62709	4.115E-03
182.00	0.63120	4.113E-03
183.00	0.63531	4.111E-03
184.00	0.63942	4.110E-03
185.00	0.64353	4.108E-03
186.00	0.64764	4.106E-03
187.00	0.65174	4.105E-03
188.00	0.65585	4.100E-03
189.00	0.65995	4.101E-03
190.00	0.66405	4.100E-03
191.00	0.66815	4.098E-03
192.00	0.67225	4.096E-03
193.00	0.67634	4.095E-03
194.00	0.68044	4.093E-03
195.00	0.68453	4.092E-03
196.00	0.68862	4.090E-03
197.00	0.69271	4.089E-03
198.00	0.69680	4.087E-03
199.00	0.70088	4.085E-03
200.00	0.70497	4.084E-03
201.00	0.70905	4.082E-03
202.00	0.71313	4.081E-03
203.00	0.71721	4.079E-03
204.00	0.72129	4.078E-03
205.00	0.72537	4.076E-03
206.00	0.72944	4.075E-03
207.00	0.73352	4.073E-03
208.00	0.73759	4.072E-03
209.00	0.74166	4.070E-03
210.00	0.74573	4.069E-03
211.00	0.74980	4.067E-03
212.00	0.75387	4.066E-03
213.00	0.75793	4.065E-03
214.00	0.76199	4.063E-03
215.00	0.76606	4.062E-03
216.00	0.77012	4.060E-03
217.00	0.77418	4.059E-03
218.00	0.77824	4.057E-03
219.00	0.78229	4.056E-03
220.00	0.78635	4.055E-03
221.00	0.79040	4.053E-03
222.00	0.79445	4.052E-03
223.00	0.79851	4.050E-03
224.00	0.80256	4.049E-03
225.00	0.80660	4.048E-03
226.00	0.81065	4.046E-03
227.00	0.81470	4.045E-03
228.00	0.81874	4.044E-03
229.00	0.82278	4.042E-03
230.00	0.82683	4.041E-03
231.00	0.83087	4.040E-03
232.00	0.83490	4.038E-03
233.00	0.83894	4.037E-03
234.00	0.84298	4.036E-03
235.00	0.84701	4.034E-03
236.00	0.85105	4.033E-03
237.00	0.85508	4.032E-03
238.00	0.85911	4.030E-03
239.00	0.86314	4.029E-03
240.00	0.86717	4.028E-03
241.00	0.87120	4.027E-03
242.00	0.87522	4.025E-03
243.00	0.87925	4.024E-03
244.00	0.88327	4.023E-03
245.00	0.88729	4.021E-03
246.00	0.89131	4.020E-03
247.00	0.89533	4.019E-03
248.00	0.89935	4.018E-03
249.00	0.90337	4.016E-03
250.00	0.90738	4.015E-03
251.00	0.91140	4.014E-03
252.00	0.91541	4.013E-03
253.00	0.91942	4.011E-03
254.00	0.92343	4.010E-03
255.00	0.92744	4.009E-03
256.00	0.93145	4.008E-03
257.00	0.93546	4.006E-03
258.00	0.93946	4.005E-03
259.00	0.94347	4.004E-03
260.00	0.94747	4.003E-03
261.00	0.95147	4.001E-03
262.00	0.95547	4.000E-03
263.00	0.95947	3.999E-03
264.00	0.96347	3.998E-03
265.00	0.96747	3.996E-03
266.00	0.97147	3.995E-03
267.00	0.97546	3.994E-03
268.00	0.97945	3.993E-03
269.00	0.98345	3.992E-03
270.00	0.98744	3.990E-03
271.00	0.99143	3.989E-03
272.00	0.99541	3.988E-03
273.00	0.99940	3.987E-03
273.15	1.00000	3.987E-03
283.15	1.03900
293.15	1.07790
303.15	1.11670
313.15	1.15540
323.15	1.19400
333.15	1.23240
343.15	1.27070
353.15	1.30890
363.15	1.34700
373.15	1.38500
